File: Dioptas_main/ExampleData/Fe7C3_300_020.chi
D:\Arbeit\APS\Projects\Fe7C3 melting\BGI time\Fe7C3_300\Fe7C3_300_020.tif: 2-the
2-Theta Angle (Degrees)

       1449
 0.010421  35.5969
 0.0312629  36.5204
 0.0521048  36.6283
 0.0729467  36.8381
 0.0937886  36.7791
 0.114631  36.3124
 0.135472  35.2924
 0.156314  35.6595
 0.177156  36.1095
 0.197998  36.309
 0.21884  37.3224
 0.239682  37.1331
 0.260524  36.785
 0.281366  36.5044
 0.302208  36.5867
 0.32305  36.0157
 0.343892  35.3722
 0.364734  35.6303
 0.385575  35.6421
 0.406417  35.7322
 0.427259  36.1305
 0.448101  36.7504
 0.468943  37.483
 0.489785  37.4439
 0.510627  37.0693
 0.531469  37.4734
 0.552311  38.4747
 0.573153  39.3189
 0.593995  39.7004
 0.614836  39.7582
 0.635678  39.8168
 0.65652  39.459
 0.677362  39.36
 0.698204  40.2937
 0.719046  41.131
 0.739888  41.2311
 0.76073  41.5926
 0.781572  42.2101
 0.802414  42.8536
 0.823256  42.9241
 0.844098  43.0739
 0.864939  44.0635
 0.885781  45.845
 0.906623  46.6785
 0.927465  46.6211
 0.948307  46.753
 0.969149  47.6769
 0.989991  49.0833
 1.01083  49.6861
 1.03167  50.5924
 1.05252  51.3349
 1.07336  52.1956
 1.0942  53.2457
 1.11504  55.0137
 1.13588  56.7392
 1.15673  58.1182
 1.17757  59.7578
 1.19841  61.5342
 1.21925  63.0981
 1.24009  64.8683
 1.26094  67.3745
 1.28178  70.0626
 1.30262  72.0228
 1.32346  74.1827
 1.3443  76.3439
 1.36515  78.4325
 1.38599  80.998
 1.40683  82.9145
 1.42767  84.6018
 1.44851  86.4753
 1.46935  88.9254
 1.4902  91.2139
 1.51104  93.02
 1.53188  95.3564
 1.55272  96.5073
 1.57356  98.2883
 1.59441  100.44
 1.61525  102.43
 1.63609  104.412
 1.65693  106.048
 1.67777  107.659
 1.69862  109.138
 1.71946  111.609
 1.7403  114.034
 1.76114  116.1
 1.78198  118.023
 1.80283  120.02
 1.82367  120.908
 1.84451  121.982
 1.86535  123.115
 1.88619  124.809
 1.90704  126.429
 1.92788  128.383
 1.94872  129.861
 1.96956  130.431
 1.9904  130.662
 2.01124  131.582
 2.03209  132.938
 2.05293  133.407
 2.07377  133.84
 2.09461  135.106
 2.11545  135.988
 2.1363  136.259
 2.15714  137
 2.17798  137.605
 2.19882  138.475
 2.21966  139.547
 2.24051  140.25
 2.26135  140.138
 2.28219  140.356
 2.30303  140.898
 2.32387  141.457
 2.34472  142.164
 2.36556  142.619
 2.3864  143.67
 2.40724  144.74
 2.42808  145.374
 2.44893  145.399
 2.46977  145.638
 2.49061  146.303
 2.51145  146.533
 2.53229  146.787
 2.55313  146.885
 2.57398  147.394
 2.59482  147.785
 2.61566  148.401
 2.6365  148.623
 2.65734  149.289
 2.67819  150.132
 2.69903  151.257
 2.71987  151.629
 2.74071  151.575
 2.76155  152.081
 2.7824  153.096
 2.80324  153.165
 2.82408  152.663
 2.84492  152.62
 2.86576  152.267
 2.88661  152.69
 2.90745  153.762
 2.92829  154.233
 2.94913  154.194
 2.96997  154.215
 2.99081  154.465
 3.01166  154.316
 3.0325  154.166
 3.05334  154.396
 3.07418  155.387
 3.09502  156.121
 3.11587  156.27
 3.13671  157.216
 3.15755  157.889
 3.17839  158.503
 3.19923  158.994
 3.22008  159.631
 3.24092  159.859
 3.26176  159.884
 3.2826  159.995
 3.30344  159.914
 3.32429  160.021
 3.34513  160.357
 3.36597  161.706
 3.38681  162.595
 3.40765  163.305
 3.42849  164.236
 3.44934  164.672
 3.47018  165.302
 3.49102  165.803
 3.51186  166.083
 3.5327  166.332
 3.55355  166.704
 3.57439  166.776
 3.59523  167.284
 3.61607  168.599
 3.63691  170.108
 3.65776  171.203
 3.6786  172.569
 3.69944  173.848
 3.72028  174.938
 3.74112  177.322
 3.76197  179.809
 3.78281  182.34
 3.80365  184.871
 3.82449  187.967
 3.84533  191.093
 3.86618  194.387
 3.88702  197.297
 3.90786  200.483
 3.9287  203.499
 3.94954  206.043
 3.97038  208.293
 3.99123  211.451
 4.01207  214.488
 4.03291  216.775
 4.05375  219.254
 4.07459  221.9
 4.09544  224.917
 4.11628  227.748
 4.13712  230.59
 4.15796  232.753
 4.1788  234.54
 4.19965  237.033
 4.22049  240.382
 4.24133  242.432
 4.26217  244.162
 4.28301  247.163
 4.30386  250.389
 4.3247  252.506
 4.34554  254.407
 4.36638  256.601
 4.38722  259.557
 4.40806  262.761
 4.42891  266.54
 4.44975  269.492
 4.47059  272.456
 4.49143  275.503
 4.51227  277.545
 4.53312  279.488
 4.55396  281.788
 4.5748  285.115
 4.59564  288.647
 4.61648  292.785
 4.63733  296.764
 4.65817  300.688
 4.67901  305.149
 4.69985  310.127
 4.72069  315.544
 4.74154  320.916
 4.76238  327.41
 4.78322  334.047
 4.80406  340.66
 4.8249  348.023
 4.84575  354.873
 4.86659  360.732
 4.88743  365.774
 4.90827  370.788
 4.92911  375.855
 4.94995  381.414
 4.9708  385.223
 4.99164  389.846
 5.01248  395.243
 5.03332  399.515
 5.05416  403.543
 5.07501  408.172
 5.09585  413.121
 5.11669  417.104
 5.13753  421.791
 5.15837  426.484
 5.17922  430.397
 5.20006  435.416
 5.2209  440.928
 5.24174  445.135
 5.26258  449.443
 5.28343  454.914
 5.30427  458.922
 5.32511  461.68
 5.34595  463.912
 5.36679  467.137
 5.38763  470.223
 5.40848  473.149
 5.42932  476.345
 5.45016  478.157
 5.471  480.114
 5.49184  482.232
 5.51269  484.712
 5.53353  487.254
 5.55437  488.58
 5.57521  489.951
 5.59605  491.792
 5.6169  493.353
 5.63774  494.618
 5.65858  495.466
 5.67942  497.589
 5.70026  499.82
 5.72111  502.144
 5.74195  504.286
 5.76279  506.227
 5.78363  508.271
 5.80447  511.417
 5.82531  515.046
 5.84616  517.205
 5.867  518.972
 5.88784  519.663
 5.90868  519.596
 5.92952  519.452
 5.95037  517.703
 5.97121  517.152
 5.99205  519.223
 6.01289  523.62
 6.03373  528.924
 6.05458  534.219
 6.07542  537.247
 6.09626  536.348
 6.1171  533.872
 6.13794  533.566
 6.15879  533.936
 6.17963  535.164
 6.20047  536.672
 6.22131  538.755
 6.24215  540.608
 6.263  541.966
 6.28384  544.035
 6.30468  545.992
 6.32552  548.78
 6.34636  551.401
 6.36721  553.733
 6.38805  557.701
 6.40889  560.961
 6.42973  562.966
 6.45057  563.091
 6.47141  562.951
 6.49226  561.92
 6.5131  561.447
 6.53394  560.84
 6.55478  559.455
 6.57562  558.301
 6.59647  558.172
 6.61731  558.718
 6.63815  559.36
 6.65899  559.482
 6.67983  560.154
 6.70068  561.706
 6.72152  562.805
 6.74236  563.841
 6.7632  565.718
 6.78404  566.399
 6.80489  567.237
 6.82573  569.277
 6.84657  570.865
 6.86741  573.014
 6.88825  575.238
 6.90909  577.241
 6.92994  579.276
 6.95078  581.956
 6.97162  584.375
 6.99246  586.64
 7.0133  588.348
 7.03415  590.362
 7.05499  593.063
 7.07583  596.3
 7.09667  599.525
 7.11751  603.082
 7.13836  606.768
 7.1592  611.386
 7.18004  616.331
 7.20088  622.647
 7.22172  630.322
 7.24257  638.138
 7.26341  645.683
 7.28425  651.277
 7.30509  655.759
 7.32593  659.965
 7.34678  665.377
 7.36762  672.258
 7.38846  678.009
 7.4093  681.156
 7.43014  681.622
 7.45098  681.662
 7.47183  680.529
 7.49267  676.973
 7.51351  674.376
 7.53435  672.982
 7.55519  671.561
 7.57604  672.075
 7.59688  674.195
 7.61772  675.894
 7.63856  676.371
 7.6594  677.355
 7.68025  678.112
 7.70109  677.35
 7.72193  678.65
 7.74277  682.562
 7.76361  687.456
 7.78446  692.941
 7.8053  700.976
 7.82614  711.503
 7.84698  725.871
 7.86782  743.37
 7.88866  765.27
 7.90951  796.552
 7.93035  853.988
 7.95119  964.104
 7.97203  1191.5
 7.99287  1472.48
 8.01372  1653.99
 8.03456  1672.39
 8.0554  1484.23
 8.07624  1218.2
 8.09708  1029.62
 8.11793  926.797
 8.13877  873.053
 8.15961  845.946
 8.18045  841.949
 8.20129  861.397
 8.22214  892.261
 8.24298  910.12
 8.26382  910.576
 8.28466  904.946
 8.3055  902.213
 8.32634  903.14
 8.34719  902.166
 8.36803  892.007
 8.38887  871.551
 8.40971  848.117
 8.43055  827.743
 8.4514  814.262
 8.47224  808.101
 8.49308  808.153
 8.51392  813.721
 8.53476  826.386
 8.55561  848.738
 8.57645  887.294
 8.59729  954.878
 8.61813  1070.53
 8.63897  1242.35
 8.65982  1420.99
 8.68066  1504.24
 8.7015  1465.91
 8.72234  1362.19
 8.74318  1283.49
 8.76402  1251.3
 8.78487  1225.78
 8.80571  1177.83
 8.82655  1119.06
 8.84739  1083.84
 8.86823  1100.49
 8.88908  1175.57
 8.90992  1321.6
 8.93076  1647.01
 8.9516  2082.01
 8.97244  2489.81
 8.99329  2859.25
 9.01413  2954.25
 9.03497  2698.05
 9.05581  2294.07
 9.07665  1843.26
 9.0975  1509.67
 9.11834  1288.55
 9.13918  1133.65
 9.16002  1019.54
 9.18086  937.472
 9.20171  881.79
 9.22255  843.666
 9.24339  817.943
 9.26423  801.934
 9.28507  791.008
 9.30591  782.551
 9.32676  775.218
 9.3476  769.51
 9.36844  765.083
 9.38928  761.062
 9.41012  758.696
 9.43097  757.9
 9.45181  757.397
 9.47265  756.539
 9.49349  756.647
 9.51433  758.187
 9.53518  761.86
 9.55602  765.31
 9.57686  771.164
 9.5977  781.58
 9.61854  796.242
 9.63939  814.495
 9.66023  829.174
 9.68107  834.344
 9.70191  834.256
 9.72275  827.713
 9.7436  819.183
 9.76444  814.578
 9.78528  812.317
 9.80612  814.036
 9.82696  820.399
 9.8478  830.443
 9.86865  844.422
 9.88949  865.729
 9.91033  895.146
 9.93117  931.159
 9.95201  966.975
 9.97286  990.426
 9.9937  997.197
 10.0145  997.282
 10.0354  1006.77
 10.0562  1039.58
 10.0771  1102.58
 10.0979  1199.64
 10.1188  1322.91
 10.1396  1445.31
 10.1604  1481.68
 10.1813  1375.97
 10.2021  1214.57
 10.223  1090.15
 10.2438  1004.39
 10.2646  942.152
 10.2855  898.511
 10.3063  867.463
 10.3272  846.605
 10.348  832.694
 10.3689  825.741
 10.3897  825.121
 10.4105  829.661
 10.4314  841.889
 10.4522  864.229
 10.4731  901.323
 10.4939  949.987
 10.5147  994.098
 10.5356  1013.73
 10.5564  1001.62
 10.5773  960.978
 10.5981  909.683
 10.619  867.364
 10.6398  838.401
 10.6606  820.384
 10.6815  809.954
 10.7023  803.178
 10.7232  798.974
 10.744  796.7
 10.7648  795.042
 10.7857  794.657
 10.8065  795.858
 10.8274  797.676
 10.8482  798.71
 10.8691  800.04
 10.8899  801.486
 10.9107  802.941
 10.9316  803.665
 10.9524  804.04
 10.9733  804.282
 10.9941  804.264
 11.015  803.828
 11.0358  802.484
 11.0566  802.433
 11.0775  802.57
 11.0983  802.386
 11.1192  801.517
 11.14  799.79
 11.1608  798.545
 11.1817  798.592
 11.2025  797.464
 11.2234  796.983
 11.2442  796.863
 11.2651  796.883
 11.2859  797.929
 11.3067  800.001
 11.3276  802.921
 11.3484  807.739
 11.3693  814.337
 11.3901  821.271
 11.4109  828.11
 11.4318  831.056
 11.4526  829.191
 11.4735  824.184
 11.4943  816.737
 11.5152  809.574
 11.536  803.443
 11.5568  798.997
 11.5777  796.818
 11.5985  795.893
 11.6194  795.538
 11.6402  793.968
 11.6611  792.092
 11.6819  791.267
 11.7027  790.957
 11.7236  790.372
 11.7444  790.543
 11.7653  790.511
 11.7861  789.455
 11.8069  789.353
 11.8278  788.349
 11.8486  787.154
 11.8695  785.708
 11.8903  784.248
 11.9112  784.079
 11.932  784.255
 11.9528  784.434
 11.9737  784.316
 11.9945  785.973
 12.0154  788.62
 12.0362  791.321
 12.057  794.575
 12.0779  799.444
 12.0987  805.53
 12.1196  812.707
 12.1404  819.523
 12.1613  824.99
 12.1821  828.324
 12.2029  829.392
 12.2238  827.144
 12.2446  821.715
 12.2655  816.374
 12.2863  812.418
 12.3072  810.347
 12.328  810.884
 12.3488  814.581
 12.3697  820.442
 12.3905  827.141
 12.4114  832.224
 12.4322  834.053
 12.453  833.471
 12.4739  827.986
 12.4947  819.688
 12.5156  812.436
 12.5364  807.456
 12.5573  803.849
 12.5781  802.348
 12.5989  802.623
 12.6198  804.083
 12.6406  805.52
 12.6615  808.029
 12.6823  812.718
 12.7031  818.257
 12.724  826.252
 12.7448  835.622
 12.7657  845.826
 12.7865  856.358
 12.8074  863.102
 12.8282  863.991
 12.849  857.8
 12.8699  847.599
 12.8907  837.098
 12.9116  827.752
 12.9324  819.886
 12.9533  813.927
 12.9741  810.257
 12.9949  807.874
 13.0158  806.671
 13.0366  805.131
 13.0575  805.005
 13.0783  804.802
 13.0991  804.721
 13.12  805.042
 13.1408  805.901
 13.1617  807.025
 13.1825  807.692
 13.2034  808.19
 13.2242  809.691
 13.245  810.851
 13.2659  811.239
 13.2867  811.261
 13.3076  811.863
 13.3284  812.755
 13.3492  813.446
 13.3701  814.486
 13.3909  814.405
 13.4118  813.917
 13.4326  812.964
 13.4535  811.698
 13.4743  810.894
 13.4951  812.7
 13.516  817.458
 13.5368  825.058
 13.5577  834.832
 13.5785  846.621
 13.5993  859.251
 13.6202  870.712
 13.641  878.303
 13.6619  879.313
 13.6827  874.563
 13.7036  865.218
 13.7244  854.851
 13.7452  846.009
 13.7661  840.414
 13.7869  836.981
 13.8078  834.495
 13.8286  834.526
 13.8495  835.029
 13.8703  834.141
 13.8911  832.962
 13.912  830.666
 13.9328  827.008
 13.9537  823.141
 13.9745  818.546
 13.9953  815.052
 14.0162  813.429
 14.037  812.334
 14.0579  813.404
 14.0787  815.994
 14.0996  818.85
 14.1204  820.769
 14.1412  820.831
 14.1621  821.28
 14.1829  821.98
 14.2038  821.761
 14.2246  819.339
 14.2454  816.154
 14.2663  813.025
 14.2871  809.399
 14.308  806.222
 14.3288  803.477
 14.3497  801.594
 14.3705  800.323
 14.3913  799.463
 14.4122  799.999
 14.433  801.117
 14.4539  802.542
 14.4747  805.992
 14.4956  810.075
 14.5164  814.398
 14.5372  819.613
 14.5581  826.31
 14.5789  833.12
 14.5998  837.483
 14.6206  837.205
 14.6414  833.94
 14.6623  827.265
 14.6831  819.177
 14.704  812.008
 14.7248  805.69
 14.7457  800.892
 14.7665  797.653
 14.7873  794.313
 14.8082  791.671
 14.829  789.408
 14.8499  787.024
 14.8707  786.132
 14.8915  785.511
 14.9124  784.975
 14.9332  785.454
 14.9541  786.523
 14.9749  787.777
 14.9958  789.311
 15.0166  793.069
 15.0374  797.944
 15.0583  804.606
 15.0791  814.693
 15.1  829.649
 15.1208  849.908
 15.1417  875.437
 15.1625  906.728
 15.1833  940.445
 15.2042  967.698
 15.225  979.72
 15.2459  972.847
 15.2667  951.522
 15.2875  925.61
 15.3084  899.854
 15.3292  878.54
 15.3501  862.866
 15.3709  851.87
 15.3918  845.634
 15.4126  843.966
 15.4334  846.575
 15.4543  853.865
 15.4751  867.444
 15.496  887.422
 15.5168  911.165
 15.5376  935.876
 15.5585  954.181
 15.5793  961.926
 15.6002  963.274
 15.621  958.603
 15.6419  954.604
 15.6627  956.51
 15.6835  965.472
 15.7044  976.914
 15.7252  984.993
 15.7461  991.753
 15.7669  999.774
 15.7878  1005.05
 15.8086  1004.72
 15.8294  993.443
 15.8503  969.738
 15.8711  935.808
 15.892  896.319
 15.9128  859.779
 15.9336  830.116
 15.9545  808.38
 15.9753  794.258
 15.9962  783.888
 16.017  776.952
 16.0379  772.668
 16.0587  769.799
 16.0795  767.775
 16.1004  765.887
 16.1212  764.054
 16.1421  763.274
 16.1629  762.895
 16.1837  762.617
 16.2046  763.742
 16.2254  765.814
 16.2463  767.752
 16.2671  768.909
 16.288  770.565
 16.3088  771.574
 16.3296  771.181
 16.3505  767.95
 16.3713  762.452
 16.3922  758.333
 16.413  755.028
 16.4338  752.123
 16.4547  749.94
 16.4755  747.318
 16.4964  744.649
 16.5172  741.89
 16.5381  739.566
 16.5589  738.139
 16.5797  736.771
 16.6006  734.507
 16.6214  733.036
 16.6423  731.949
 16.6631  730.538
 16.684  728.607
 16.7048  726.706
 16.7256  725.536
 16.7465  724.14
 16.7673  722.404
 16.7882  720.447
 16.809  719.198
 16.8298  719.019
 16.8507  718.291
 16.8715  716.986
 16.8924  715.876
 16.9132  714.315
 16.9341  712.857
 16.9549  711.829
 16.9757  710.892
 16.9966  710.156
 17.0174  709.782
 17.0383  709.87
 17.0591  710.027
 17.0799  710.585
 17.1008  712.374
 17.1216  714.362
 17.1425  716.68
 17.1633  718.867
 17.1842  720.697
 17.205  723.605
 17.2258  725.375
 17.2467  725.818
 17.2675  725.657
 17.2884  723.97
 17.3092  721.54
 17.3301  719.556
 17.3509  718.576
 17.3717  717.651
 17.3926  716.182
 17.4134  714.766
 17.4343  712.763
 17.4551  710.851
 17.4759  708.905
 17.4968  706.982
 17.5176  705.479
 17.5385  704.399
 17.5593  704.451
 17.5802  704.54
 17.601  703.842
 17.6218  703.188
 17.6427  701.555
 17.6635  700.985
 17.6844  700.567
 17.7052  700.165
 17.726  699.746
 17.7469  699.464
 17.7677  700.177
 17.7886  701.208
 17.8094  702.122
 17.8303  703.164
 17.8511  703.449
 17.8719  704.036
 17.8928  704.67
 17.9136  705.604
 17.9345  707.336
 17.9553  709.959
 17.9762  713.843
 17.997  717.644
 18.0178  720.581
 18.0387  722.976
 18.0595  723.987
 18.0804  724.333
 18.1012  723.722
 18.122  722.843
 18.1429  720.348
 18.1637  717.205
 18.1846  714.842
 18.2054  712.182
 18.2263  709.606
 18.2471  707.275
 18.2679  705.926
 18.2888  704.197
 18.3096  702.264
 18.3305  701.006
 18.3513  699.989
 18.3721  699.265
 18.393  699.469
 18.4138  699.933
 18.4347  700.68
 18.4555  701.426
 18.4764  702.183
 18.4972  703.099
 18.518  703.457
 18.5389  704.188
 18.5597  704.162
 18.5806  703.701
 18.6014  704.338
 18.6223  704.925
 18.6431  705.938
 18.6639  706.54
 18.6848  707.523
 18.7056  709.729
 18.7265  710.956
 18.7473  710.846
 18.7681  710.476
 18.789  710.055
 18.8098  709.935
 18.8307  709.953
 18.8515  708.972
 18.8724  708.634
 18.8932  708.144
 18.914  707.154
 18.9349  706.374
 18.9557  705.068
 18.9766  704.081
 18.9974  702.855
 19.0182  701.739
 19.0391  700.83
 19.0599  700.128
 19.0808  698.603
 19.1016  697.304
 19.1225  695.874
 19.1433  694.824
 19.1641  694.299
 19.185  693.181
 19.2058  693.298
 19.2267  693.169
 19.2475  692.899
 19.2684  692.76
 19.2892  692.833
 19.31  693.654
 19.3309  694.696
 19.3517  694.78
 19.3726  695.649
 19.3934  696.664
 19.4142  697.213
 19.4351  698.244
 19.4559  698.756
 19.4768  699.205
 19.4976  698.855
 19.5185  697.468
 19.5393  696.709
 19.5601  696.753
 19.581  696.389
 19.6018  696.201
 19.6227  696.308
 19.6435  696.816
 19.6643  697.55
 19.6852  697.373
 19.706  696.911
 19.7269  696.232
 19.7477  695.86
 19.7686  696.028
 19.7894  695.607
 19.8102  695.17
 19.8311  694.373
 19.8519  694.093
 19.8728  694.148
 19.8936  694.465
 19.9144  694.144
 19.9353  693.667
 19.9561  693.537
 19.977  693.811
 19.9978  694.731
 20.0187  694.981
 20.0395  694.779
 20.0603  694.902
 20.0812  695.892
 20.102  696.792
 20.1229  696.791
 20.1437  697.017
 20.1646  697.031
 20.1854  698.174
 20.2062  699.618
 20.2271  700.856
 20.2479  702.136
 20.2688  703.487
 20.2896  704.879
 20.3104  705.355
 20.3313  706.254
 20.3521  706.595
 20.373  707.347
 20.3938  708.664
 20.4147  709.535
 20.4355  709.756
 20.4563  710.328
 20.4772  710.105
 20.498  709.523
 20.5189  708.921
 20.5397  708.897
 20.5605  709.448
 20.5814  709.656
 20.6022  711.082
 20.6231  713.185
 20.6439  714.908
 20.6648  715.993
 20.6856  717.32
 20.7064  719.32
 20.7273  721.45
 20.7481  723.394
 20.769  725.747
 20.7898  727.428
 20.8107  729.046
 20.8315  731.161
 20.8523  733.54
 20.8732  734.992
 20.894  736.296
 20.9149  737.23
 20.9357  738.229
 20.9565  737.918
 20.9774  737.464
 20.9982  737.865
 21.0191  737.961
 21.0399  738.363
 21.0608  736.818
 21.0816  736.49
 21.1024  735.682
 21.1233  735.146
 21.1441  734.347
 21.165  733.875
 21.1858  733.65
 21.2066  733.484
 21.2275  733.236
 21.2483  733.62
 21.2692  733.899
 21.29  733.645
 21.3109  733.158
 21.3317  732.96
 21.3525  733.106
 21.3734  733.31
 21.3942  734.067
 21.4151  734.789
 21.4359  736.205
 21.4568  737.839
 21.4776  738.362
 21.4984  737.378
 21.5193  736.836
 21.5401  737.538
 21.561  737.536
 21.5818  737.55
 21.6026  738.811
 21.6235  739.81
 21.6443  740.6
 21.6652  741.497
 21.686  742.024
 21.7069  743.026
 21.7277  744.332
 21.7485  745.8
 21.7694  747.705
 21.7902  750.289
 21.8111  752.407
 21.8319  755.188
 21.8527  757.613
 21.8736  761.024
 21.8944  764.13
 21.9153  768.519
 21.9361  772.609
 21.957  776.97
 21.9778  780.208
 21.9986  782.062
 22.0195  781.727
 22.0403  781.021
 22.0612  779.827
 22.082  778.973
 22.1029  778.003
 22.1237  777.204
 22.1445  775.476
 22.1654  775.709
 22.1862  775.195
 22.2071  774.268
 22.2279  773.759
 22.2487  773.831
 22.2696  759.431
 22.2904  668.823
 22.3113  543.281
 22.3321  454.213
 22.353  370.198
 22.3738  260.497
 22.3946  108.275
 22.4155  12.2655
 22.4363  0.0000000E+00
 22.4572  0.0000000E+00
 22.478  0.0000000E+00
 22.4988  0.0000000E+00
 22.5197  0.0000000E+00
 22.5405  0.0000000E+00
 22.5614  0.0000000E+00
 22.5822  0.0000000E+00
 22.6031  0.0000000E+00
 22.6239  0.0000000E+00
 22.6447  0.0000000E+00
 22.6656  0.0000000E+00
 22.6864  0.0000000E+00
 22.7073  0.0000000E+00
 22.7281  0.0000000E+00
 22.7489  0.0000000E+00
 22.7698  0.0000000E+00
 22.7906  0.0000000E+00
 22.8115  0.0000000E+00
 22.8323  0.0000000E+00
 22.8532  0.0000000E+00
 22.874  0.0000000E+00
 22.8948  0.0000000E+00
 22.9157  0.0000000E+00
 22.9365  0.0000000E+00
 22.9574  0.0000000E+00
 22.9782  0.0000000E+00
 22.9991  0.0000000E+00
 23.0199  0.0000000E+00
 23.0407  0.0000000E+00
 23.0616  0.0000000E+00
 23.0824  0.0000000E+00
 23.1033  0.0000000E+00
 23.1241  0.0000000E+00
 23.1449  0.0000000E+00
 23.1658  0.0000000E+00
 23.1866  0.0000000E+00
 23.2075  0.0000000E+00
 23.2283  0.0000000E+00
 23.2492  0.0000000E+00
 23.27  0.0000000E+00
 23.2908  0.0000000E+00
 23.3117  0.0000000E+00
 23.3325  0.0000000E+00
 23.3534  0.0000000E+00
 23.3742  0.0000000E+00
 23.3951  0.0000000E+00
 23.4159  0.0000000E+00
 23.4367  0.0000000E+00
 23.4576  0.0000000E+00
 23.4784  0.0000000E+00
 23.4993  0.0000000E+00
 23.5201  0.0000000E+00
 23.5409  0.0000000E+00
 23.5618  0.0000000E+00
 23.5826  0.0000000E+00
 23.6035  0.0000000E+00
 23.6243  0.0000000E+00
 23.6452  0.0000000E+00
 23.666  0.0000000E+00
 23.6868  0.0000000E+00
 23.7077  0.0000000E+00
 23.7285  0.0000000E+00
 23.7494  0.0000000E+00
 23.7702  0.0000000E+00
 23.791  0.0000000E+00
 23.8119  0.0000000E+00
 23.8327  0.0000000E+00
 23.8536  0.0000000E+00
 23.8744  0.0000000E+00
 23.8953  0.0000000E+00
 23.9161  0.0000000E+00
 23.9369  0.0000000E+00
 23.9578  0.0000000E+00
 23.9786  0.0000000E+00
 23.9995  0.0000000E+00
 24.0203  0.0000000E+00
 24.0411  0.0000000E+00
 24.062  0.0000000E+00
 24.0828  0.0000000E+00
 24.1037  0.0000000E+00
 24.1245  0.0000000E+00
 24.1454  0.0000000E+00
 24.1662  0.0000000E+00
 24.187  0.0000000E+00
 24.2079  0.0000000E+00
 24.2287  0.0000000E+00
 24.2496  0.0000000E+00
 24.2704  0.0000000E+00
 24.2913  0.0000000E+00
 24.3121  0.0000000E+00
 24.3329  0.0000000E+00
 24.3538  0.0000000E+00
 24.3746  0.0000000E+00
 24.3955  0.0000000E+00
 24.4163  0.0000000E+00
 24.4371  0.0000000E+00
 24.458  0.0000000E+00
 24.4788  0.0000000E+00
 24.4997  0.0000000E+00
 24.5205  0.0000000E+00
 24.5414  0.0000000E+00
 24.5622  0.0000000E+00
 24.583  0.0000000E+00
 24.6039  0.0000000E+00
 24.6247  0.0000000E+00
 24.6456  0.0000000E+00
 24.6664  0.0000000E+00
 24.6872  0.0000000E+00
 24.7081  0.0000000E+00
 24.7289  0.0000000E+00
 24.7498  0.0000000E+00
 24.7706  0.0000000E+00
 24.7915  0.0000000E+00
 24.8123  0.0000000E+00
 24.8331  0.0000000E+00
 24.854  0.0000000E+00
 24.8748  0.0000000E+00
 24.8957  0.0000000E+00
 24.9165  0.0000000E+00
 24.9374  0.0000000E+00
 24.9582  0.0000000E+00
 24.979  0.0000000E+00
 24.9999  0.0000000E+00
 25.0207  0.0000000E+00
 25.0416  0.0000000E+00
 25.0624  0.0000000E+00
 25.0832  0.0000000E+00
 25.1041  0.0000000E+00
 25.1249  0.0000000E+00
 25.1458  0.0000000E+00
 25.1666  0.0000000E+00
 25.1875  0.0000000E+00
 25.2083  0.0000000E+00
 25.2291  0.0000000E+00
 25.25  0.0000000E+00
 25.2708  0.0000000E+00
 25.2917  0.0000000E+00
 25.3125  0.0000000E+00
 25.3333  0.0000000E+00
 25.3542  0.0000000E+00
 25.375  0.0000000E+00
 25.3959  0.0000000E+00
 25.4167  0.0000000E+00
 25.4376  0.0000000E+00
 25.4584  0.0000000E+00
 25.4792  0.0000000E+00
 25.5001  0.0000000E+00
 25.5209  0.0000000E+00
 25.5418  0.0000000E+00
 25.5626  0.0000000E+00
 25.5834  0.0000000E+00
 25.6043  0.0000000E+00
 25.6251  0.0000000E+00
 25.646  0.0000000E+00
 25.6668  0.0000000E+00
 25.6877  0.0000000E+00
 25.7085  0.0000000E+00
 25.7293  0.0000000E+00
 25.7502  0.0000000E+00
 25.771  0.0000000E+00
 25.7919  0.0000000E+00
 25.8127  0.0000000E+00
 25.8336  0.0000000E+00
 25.8544  0.0000000E+00
 25.8752  0.0000000E+00
 25.8961  0.0000000E+00
 25.9169  0.0000000E+00
 25.9378  0.0000000E+00
 25.9586  0.0000000E+00
 25.9794  0.0000000E+00
 26.0003  0.0000000E+00
 26.0211  0.0000000E+00
 26.042  0.0000000E+00
 26.0628  0.0000000E+00
 26.0837  0.0000000E+00
 26.1045  0.0000000E+00
 26.1253  0.0000000E+00
 26.1462  0.0000000E+00
 26.167  0.0000000E+00
 26.1879  0.0000000E+00
 26.2087  0.0000000E+00
 26.2295  0.0000000E+00
 26.2504  0.0000000E+00
 26.2712  0.0000000E+00
 26.2921  0.0000000E+00
 26.3129  0.0000000E+00
 26.3338  0.0000000E+00
 26.3546  0.0000000E+00
 26.3754  0.0000000E+00
 26.3963  0.0000000E+00
 26.4171  0.0000000E+00
 26.438  0.0000000E+00
 26.4588  0.0000000E+00
 26.4797  0.0000000E+00
 26.5005  0.0000000E+00
 26.5213  0.0000000E+00
 26.5422  0.0000000E+00
 26.563  0.0000000E+00
 26.5839  0.0000000E+00
 26.6047  0.0000000E+00
 26.6255  0.0000000E+00
 26.6464  0.0000000E+00
 26.6672  0.0000000E+00
 26.6881  0.0000000E+00
 26.7089  0.0000000E+00
 26.7298  0.0000000E+00
 26.7506  0.0000000E+00
 26.7714  0.0000000E+00
 26.7923  0.0000000E+00
 26.8131  0.0000000E+00
 26.834  0.0000000E+00
 26.8548  0.0000000E+00
 26.8756  0.0000000E+00
 26.8965  0.0000000E+00
 26.9173  0.0000000E+00
 26.9382  0.0000000E+00
 26.959  0.0000000E+00
 26.9799  0.0000000E+00
 27.0007  0.0000000E+00
 27.0215  0.0000000E+00
 27.0424  0.0000000E+00
 27.0632  0.0000000E+00
 27.0841  0.0000000E+00
 27.1049  0.0000000E+00
 27.1258  0.0000000E+00
 27.1466  0.0000000E+00
 27.1674  0.0000000E+00
 27.1883  0.0000000E+00
 27.2091  0.0000000E+00
 27.23  0.0000000E+00
 27.2508  0.0000000E+00
 27.2716  0.0000000E+00
 27.2925  0.0000000E+00
 27.3133  0.0000000E+00
 27.3342  0.0000000E+00
 27.355  0.0000000E+00
 27.3759  0.0000000E+00
 27.3967  0.0000000E+00
 27.4175  0.0000000E+00
 27.4384  0.0000000E+00
 27.4592  0.0000000E+00
 27.4801  0.0000000E+00
 27.5009  0.0000000E+00
 27.5217  0.0000000E+00
 27.5426  0.0000000E+00
 27.5634  0.0000000E+00
 27.5843  0.0000000E+00
 27.6051  0.0000000E+00
 27.626  0.0000000E+00
 27.6468  0.0000000E+00
 27.6676  0.0000000E+00
 27.6885  0.0000000E+00
 27.7093  0.0000000E+00
 27.7302  0.0000000E+00
 27.751  0.0000000E+00
 27.7719  0.0000000E+00
 27.7927  0.0000000E+00
 27.8135  0.0000000E+00
 27.8344  0.0000000E+00
 27.8552  0.0000000E+00
 27.8761  0.0000000E+00
 27.8969  0.0000000E+00
 27.9177  0.0000000E+00
 27.9386  0.0000000E+00
 27.9594  0.0000000E+00
 27.9803  0.0000000E+00
 28.0011  0.0000000E+00
 28.022  0.0000000E+00
 28.0428  0.0000000E+00
 28.0636  0.0000000E+00
 28.0845  0.0000000E+00
 28.1053  0.0000000E+00
 28.1262  0.0000000E+00
 28.147  0.0000000E+00
 28.1678  0.0000000E+00
 28.1887  0.0000000E+00
 28.2095  0.0000000E+00
 28.2304  0.0000000E+00
 28.2512  0.0000000E+00
 28.2721  0.0000000E+00
 28.2929  0.0000000E+00
 28.3137  0.0000000E+00
 28.3346  0.0000000E+00
 28.3554  0.0000000E+00
 28.3763  0.0000000E+00
 28.3971  0.0000000E+00
 28.418  0.0000000E+00
 28.4388  0.0000000E+00
 28.4596  0.0000000E+00
 28.4805  0.0000000E+00
 28.5013  0.0000000E+00
 28.5222  0.0000000E+00
 28.543  0.0000000E+00
 28.5638  0.0000000E+00
 28.5847  0.0000000E+00
 28.6055  0.0000000E+00
 28.6264  0.0000000E+00
 28.6472  0.0000000E+00
 28.6681  0.0000000E+00
 28.6889  0.0000000E+00
 28.7097  0.0000000E+00
 28.7306  0.0000000E+00
 28.7514  0.0000000E+00
 28.7723  0.0000000E+00
 28.7931  0.0000000E+00
 28.8139  0.0000000E+00
 28.8348  0.0000000E+00
 28.8556  0.0000000E+00
 28.8765  0.0000000E+00
 28.8973  0.0000000E+00
 28.9182  0.0000000E+00
 28.939  0.0000000E+00
 28.9598  0.0000000E+00
 28.9807  0.0000000E+00
 29.0015  0.0000000E+00
 29.0224  0.0000000E+00
 29.0432  0.0000000E+00
 29.0641  0.0000000E+00
 29.0849  0.0000000E+00
 29.1057  0.0000000E+00
 29.1266  0.0000000E+00
 29.1474  0.0000000E+00
 29.1683  0.0000000E+00
 29.1891  0.0000000E+00
 29.2099  0.0000000E+00
 29.2308  0.0000000E+00
 29.2516  0.0000000E+00
 29.2725  0.0000000E+00
 29.2933  0.0000000E+00
 29.3142  0.0000000E+00
 29.335  0.0000000E+00
 29.3558  0.0000000E+00
 29.3767  0.0000000E+00
 29.3975  0.0000000E+00
 29.4184  0.0000000E+00
 29.4392  0.0000000E+00
 29.46  0.0000000E+00
 29.4809  0.0000000E+00
 29.5017  0.0000000E+00
 29.5226  0.0000000E+00
 29.5434  0.0000000E+00
 29.5643  0.0000000E+00
 29.5851  0.0000000E+00
 29.6059  0.0000000E+00
 29.6268  0.0000000E+00
 29.6476  0.0000000E+00
 29.6685  0.0000000E+00
 29.6893  0.0000000E+00
 29.7101  0.0000000E+00
 29.731  0.0000000E+00
 29.7518  0.0000000E+00
 29.7727  0.0000000E+00
 29.7935  0.0000000E+00
 29.8144  0.0000000E+00
 29.8352  0.0000000E+00
 29.856  0.0000000E+00
 29.8769  0.0000000E+00
 29.8977  0.0000000E+00
 29.9186  0.0000000E+00
 29.9394  0.0000000E+00
 29.9603  0.0000000E+00
 29.9811  0.0000000E+00
 30.0019  0.0000000E+00
 30.0228  0.0000000E+00
 30.0436  0.0000000E+00
 30.0645  0.0000000E+00
 30.0853  0.0000000E+00
 30.1061  0.0000000E+00
 30.127  0.0000000E+00
 30.1478  0.0000000E+00
 30.1687  0.0000000E+00
 30.1895  0.0000000E+00